  11  ,noaa_18_hirs_11.flt
Number of data points:
764
Wavenumber (cm-1)   Filter response
     1327.000000       0.000000
     1327.100000       0.001664
     1327.200000       0.001866
     1327.300000       0.002068
     1327.400000       0.002267
     1327.500000       0.002457
     1327.600000       0.002634
     1327.700000       0.002795
     1327.800000       0.002938
     1327.900000       0.003059
     1328.000000       0.003158
     1328.100000       0.003233
     1328.200000       0.003285
     1328.300000       0.003314
     1328.400000       0.003322
     1328.500000       0.003312
     1328.600000       0.003285
     1328.700000       0.003244
     1328.800000       0.003191
     1328.900000       0.003132
     1329.000000       0.003067
     1329.100000       0.003000
     1329.200000       0.002934
     1329.300000       0.002871
     1329.400000       0.002813
     1329.500000       0.002762
     1329.600000       0.002719
     1329.700000       0.002685
     1329.800000       0.002660
     1329.900000       0.002644
     1330.000000       0.002636
     1330.100000       0.002637
     1330.200000       0.002645
     1330.300000       0.002660
     1330.400000       0.002680
     1330.500000       0.002706
     1330.600000       0.002735
     1330.700000       0.002768
     1330.800000       0.002805
     1330.900000       0.002845
     1331.000000       0.002890
     1331.100000       0.002938
     1331.200000       0.002992
     1331.300000       0.003052
     1331.400000       0.003120
     1331.500000       0.003197
     1331.600000       0.003283
     1331.700000       0.003381
     1331.800000       0.003491
     1331.900000       0.003613
     1332.000000       0.003749
     1332.100000       0.003898
     1332.200000       0.004060
     1332.300000       0.004235
     1332.400000       0.004421
     1332.500000       0.004617
     1332.600000       0.004822
     1332.700000       0.005033
     1332.800000       0.005250
     1332.900000       0.005469
     1333.000000       0.005690
     1333.100000       0.005909
     1333.200000       0.006127
     1333.300000       0.006343
     1333.400000       0.006555
     1333.500000       0.006763
     1333.600000       0.006969
     1333.700000       0.007173
     1333.800000       0.007376
     1333.900000       0.007581
     1334.000000       0.007789
     1334.100000       0.008001
     1334.200000       0.008221
     1334.300000       0.008451
     1334.400000       0.008694
     1334.500000       0.008952
     1334.600000       0.009227
     1334.700000       0.009520
     1334.800000       0.009831
     1334.900000       0.010162
     1335.000000       0.010513
     1335.100000       0.010882
     1335.200000       0.011269
     1335.300000       0.011673
     1335.400000       0.012092
     1335.500000       0.012524
     1335.600000       0.012967
     1335.700000       0.013421
     1335.800000       0.013883
     1335.900000       0.014353
     1336.000000       0.014829
     1336.100000       0.015313
     1336.200000       0.015804
     1336.300000       0.016304
     1336.400000       0.016815
     1336.500000       0.017339
     1336.600000       0.017879
     1336.700000       0.018438
     1336.800000       0.019020
     1336.900000       0.019630
     1337.000000       0.020269
     1337.100000       0.020942
     1337.200000       0.021652
     1337.300000       0.022401
     1337.400000       0.023191
     1337.500000       0.024026
     1337.600000       0.024904
     1337.700000       0.025829
     1337.800000       0.026799
     1337.900000       0.027815
     1338.000000       0.028876
     1338.100000       0.029985
     1338.200000       0.031139
     1338.300000       0.032338
     1338.400000       0.033581
     1338.500000       0.034869
     1338.600000       0.036205
     1338.700000       0.037589
     1338.800000       0.039027
     1338.900000       0.040521
     1339.000000       0.042076
     1339.100000       0.043696
     1339.200000       0.045388
     1339.300000       0.047160
     1339.400000       0.049019
     1339.500000       0.050972
     1339.600000       0.053027
     1339.700000       0.055192
     1339.800000       0.057474
     1339.900000       0.059881
     1340.000000       0.062418
     1340.100000       0.065088
     1340.200000       0.067899
     1340.300000       0.070855
     1340.400000       0.073962
     1340.500000       0.077220
     1340.600000       0.080635
     1340.700000       0.084212
     1340.800000       0.087951
     1340.900000       0.091854
     1341.000000       0.095924
     1341.100000       0.100170
     1341.200000       0.104580
     1341.300000       0.109180
     1341.400000       0.113970
     1341.500000       0.118950
     1341.600000       0.124140
     1341.700000       0.129550
     1341.800000       0.135180
     1341.900000       0.141060
     1342.000000       0.147180
     1342.100000       0.153570
     1342.200000       0.160230
     1342.300000       0.167190
     1342.400000       0.174450
     1342.500000       0.182020
     1342.600000       0.189920
     1342.700000       0.198160
     1342.800000       0.206740
     1342.900000       0.215660
     1343.000000       0.224930
     1343.100000       0.234540
     1343.200000       0.244490
     1343.300000       0.254780
     1343.400000       0.265400
     1343.500000       0.276340
     1343.600000       0.287600
     1343.700000       0.299150
     1343.800000       0.311010
     1343.900000       0.323140
     1344.000000       0.335540
     1344.100000       0.348170
     1344.200000       0.361040
     1344.300000       0.374150
     1344.400000       0.387480
     1344.500000       0.401030
     1344.600000       0.414790
     1344.700000       0.428740
     1344.800000       0.442880
     1344.900000       0.457190
     1345.000000       0.471670
     1345.100000       0.486310
     1345.200000       0.501090
     1345.300000       0.516000
     1345.400000       0.531010
     1345.500000       0.546130
     1345.600000       0.561310
     1345.700000       0.576550
     1345.800000       0.591810
     1345.900000       0.607070
     1346.000000       0.622310
     1346.100000       0.637530
     1346.200000       0.652660
     1346.300000       0.667670
     1346.400000       0.682540
     1346.500000       0.697190
     1346.600000       0.711640
     1346.700000       0.725840
     1346.800000       0.739790
     1346.900000       0.753450
     1347.000000       0.766810
     1347.100000       0.779840
     1347.200000       0.792530
     1347.300000       0.804870
     1347.400000       0.816850
     1347.500000       0.828450
     1347.600000       0.839690
     1347.700000       0.850550
     1347.800000       0.861020
     1347.900000       0.871120
     1348.000000       0.880840
     1348.100000       0.890220
     1348.200000       0.899230
     1348.300000       0.907860
     1348.400000       0.916060
     1348.500000       0.923870
     1348.600000       0.931290
     1348.700000       0.938340
     1348.800000       0.944990
     1348.900000       0.951260
     1349.000000       0.957140
     1349.100000       0.962620
     1349.200000       0.967700
     1349.300000       0.972390
     1349.400000       0.976680
     1349.500000       0.980570
     1349.600000       0.984070
     1349.700000       0.987180
     1349.800000       0.989920
     1349.900000       0.992290
     1350.000000       0.994300
     1350.100000       0.996000
     1350.200000       0.997380
     1350.300000       0.998430
     1350.400000       0.999180
     1350.500000       0.999680
     1350.600000       0.999940
     1350.700000       1.000000
     1350.800000       0.999870
     1350.900000       0.999580
     1351.000000       0.999150
     1351.100000       0.998600
     1351.200000       0.997940
     1351.300000       0.997190
     1351.400000       0.996350
     1351.500000       0.995440
     1351.600000       0.994470
     1351.700000       0.993440
     1351.800000       0.992340
     1351.900000       0.991190
     1352.000000       0.989980
     1352.100000       0.988690
     1352.200000       0.987320
     1352.300000       0.985810
     1352.400000       0.984240
     1352.500000       0.982590
     1352.600000       0.980890
     1352.700000       0.979120
     1352.800000       0.977290
     1352.900000       0.975410
     1353.000000       0.973480
     1353.100000       0.971500
     1353.200000       0.969500
     1353.300000       0.967470
     1353.400000       0.965430
     1353.500000       0.963400
     1353.600000       0.961370
     1353.700000       0.959370
     1353.800000       0.957390
     1353.900000       0.955450
     1354.000000       0.953560
     1354.100000       0.951810
     1354.200000       0.950050
     1354.300000       0.948330
     1354.400000       0.946670
     1354.500000       0.945060
     1354.600000       0.943500
     1354.700000       0.941980
     1354.800000       0.940500
     1354.900000       0.939050
     1355.000000       0.937630
     1355.100000       0.936220
     1355.200000       0.934820
     1355.300000       0.933430
     1355.400000       0.932030
     1355.500000       0.930630
     1355.600000       0.929220
     1355.700000       0.927800
     1355.800000       0.926370
     1355.900000       0.924930
     1356.000000       0.923490
     1356.100000       0.922010
     1356.200000       0.920530
     1356.300000       0.919050
     1356.400000       0.917610
     1356.500000       0.916180
     1356.600000       0.914800
     1356.700000       0.913450
     1356.800000       0.912150
     1356.900000       0.910910
     1357.000000       0.909730
     1357.100000       0.908610
     1357.200000       0.907550
     1357.300000       0.906560
     1357.400000       0.905620
     1357.500000       0.904750
     1357.600000       0.903940
     1357.700000       0.903180
     1357.800000       0.902460
     1357.900000       0.901790
     1358.000000       0.901190
     1358.100000       0.900850
     1358.200000       0.900530
     1358.300000       0.900240
     1358.400000       0.899960
     1358.500000       0.899710
     1358.600000       0.899480
     1358.700000       0.899260
     1358.800000       0.899060
     1358.900000       0.898870
     1359.000000       0.898710
     1359.100000       0.898580
     1359.200000       0.898470
     1359.300000       0.898390
     1359.400000       0.898350
     1359.500000       0.898340
     1359.600000       0.898380
     1359.700000       0.898450
     1359.800000       0.898570
     1359.900000       0.898730
     1360.000000       0.899050
     1360.100000       0.899260
     1360.200000       0.899500
     1360.300000       0.899770
     1360.400000       0.900060
     1360.500000       0.900370
     1360.600000       0.900700
     1360.700000       0.901030
     1360.800000       0.901360
     1360.900000       0.901680
     1361.000000       0.901980
     1361.100000       0.902260
     1361.200000       0.902500
     1361.300000       0.902710
     1361.400000       0.902880
     1361.500000       0.903000
     1361.600000       0.903070
     1361.700000       0.903100
     1361.800000       0.903080
     1361.900000       0.903110
     1362.000000       0.903120
     1362.100000       0.903260
     1362.200000       0.903380
     1362.300000       0.903460
     1362.400000       0.903520
     1362.500000       0.903560
     1362.600000       0.903570
     1362.700000       0.903570
     1362.800000       0.903550
     1362.900000       0.903520
     1363.000000       0.903470
     1363.100000       0.903410
     1363.200000       0.903330
     1363.300000       0.903230
     1363.400000       0.903110
     1363.500000       0.902960
     1363.600000       0.902780
     1363.700000       0.902560
     1363.800000       0.902330
     1363.900000       0.902090
     1364.000000       0.901800
     1364.100000       0.901230
     1364.200000       0.900600
     1364.300000       0.899900
     1364.400000       0.899130
     1364.500000       0.898290
     1364.600000       0.897390
     1364.700000       0.896420
     1364.800000       0.895380
     1364.900000       0.894290
     1365.000000       0.893150
     1365.100000       0.891960
     1365.200000       0.890730
     1365.300000       0.889460
     1365.400000       0.888180
     1365.500000       0.886880
     1365.600000       0.885570
     1365.700000       0.884250
     1365.800000       0.882900
     1365.900000       0.881550
     1366.000000       0.880220
     1366.100000       0.879180
     1366.200000       0.878190
     1366.300000       0.877210
     1366.400000       0.876230
     1366.500000       0.875260
     1366.600000       0.874290
     1366.700000       0.873320
     1366.800000       0.872350
     1366.900000       0.871360
     1367.000000       0.870370
     1367.100000       0.869350
     1367.200000       0.868320
     1367.300000       0.867270
     1367.400000       0.866200
     1367.500000       0.865120
     1367.600000       0.864020
     1367.700000       0.862860
     1367.800000       0.861680
     1367.900000       0.860510
     1368.000000       0.859340
     1368.100000       0.858100
     1368.200000       0.856880
     1368.300000       0.855700
     1368.400000       0.854560
     1368.500000       0.853480
     1368.600000       0.852460
     1368.700000       0.851510
     1368.800000       0.850630
     1368.900000       0.849840
     1369.000000       0.849130
     1369.100000       0.848500
     1369.200000       0.847960
     1369.300000       0.847510
     1369.400000       0.847140
     1369.500000       0.846860
     1369.600000       0.846640
     1369.700000       0.846480
     1369.800000       0.846390
     1369.900000       0.846380
     1370.000000       0.846430
     1370.100000       0.846520
     1370.200000       0.846670
     1370.300000       0.846880
     1370.400000       0.847160
     1370.500000       0.847510
     1370.600000       0.847920
     1370.700000       0.848410
     1370.800000       0.848970
     1370.900000       0.849610
     1371.000000       0.850340
     1371.100000       0.851150
     1371.200000       0.852050
     1371.300000       0.853050
     1371.400000       0.854160
     1371.500000       0.855370
     1371.600000       0.856680
     1371.700000       0.858110
     1371.800000       0.859650
     1371.900000       0.861290
     1372.000000       0.863050
     1372.100000       0.865000
     1372.200000       0.867050
     1372.300000       0.869200
     1372.400000       0.871440
     1372.500000       0.873760
     1372.600000       0.876150
     1372.700000       0.878600
     1372.800000       0.881120
     1372.900000       0.883680
     1373.000000       0.886280
     1373.100000       0.888930
     1373.200000       0.891600
     1373.300000       0.894300
     1373.400000       0.897030
     1373.500000       0.899800
     1373.600000       0.902600
     1373.700000       0.905410
     1373.800000       0.908230
     1373.900000       0.911060
     1374.000000       0.913910
     1374.100000       0.916710
     1374.200000       0.919510
     1374.300000       0.922330
     1374.400000       0.925150
     1374.500000       0.927960
     1374.600000       0.930780
     1374.700000       0.933590
     1374.800000       0.936380
     1374.900000       0.939150
     1375.000000       0.941890
     1375.100000       0.944620
     1375.200000       0.947300
     1375.300000       0.949920
     1375.400000       0.952550
     1375.500000       0.955120
     1375.600000       0.957620
     1375.700000       0.960030
     1375.800000       0.962350
     1375.900000       0.964580
     1376.000000       0.966690
     1376.100000       0.968700
     1376.200000       0.970590
     1376.300000       0.972370
     1376.400000       0.974030
     1376.500000       0.975580
     1376.600000       0.977010
     1376.700000       0.978330
     1376.800000       0.979530
     1376.900000       0.980620
     1377.000000       0.981590
     1377.100000       0.982440
     1377.200000       0.983180
     1377.300000       0.983810
     1377.400000       0.984310
     1377.500000       0.984690
     1377.600000       0.984950
     1377.700000       0.985080
     1377.800000       0.985070
     1377.900000       0.984910
     1378.000000       0.984610
     1378.100000       0.984190
     1378.200000       0.983600
     1378.300000       0.982830
     1378.400000       0.981890
     1378.500000       0.980750
     1378.600000       0.979420
     1378.700000       0.977880
     1378.800000       0.976140
     1378.900000       0.974180
     1379.000000       0.971990
     1379.100000       0.969590
     1379.200000       0.966930
     1379.300000       0.963920
     1379.400000       0.960670
     1379.500000       0.957190
     1379.600000       0.953460
     1379.700000       0.949490
     1379.800000       0.945270
     1379.900000       0.940800
     1380.000000       0.936080
     1380.100000       0.931020
     1380.200000       0.925700
     1380.300000       0.920130
     1380.400000       0.914290
     1380.500000       0.908190
     1380.600000       0.901820
     1380.700000       0.895170
     1380.800000       0.888250
     1380.900000       0.881050
     1381.000000       0.873560
     1381.100000       0.865810
     1381.200000       0.857680
     1381.300000       0.849250
     1381.400000       0.840540
     1381.500000       0.831560
     1381.600000       0.822290
     1381.700000       0.812750
     1381.800000       0.802950
     1381.900000       0.792880
     1382.000000       0.782560
     1382.100000       0.771940
     1382.200000       0.761070
     1382.300000       0.749980
     1382.400000       0.738660
     1382.500000       0.727120
     1382.600000       0.715380
     1382.700000       0.703450
     1382.800000       0.691320
     1382.900000       0.679030
     1383.000000       0.666570
     1383.100000       0.653950
     1383.200000       0.641180
     1383.300000       0.628290
     1383.400000       0.615290
     1383.500000       0.602190
     1383.600000       0.589010
     1383.700000       0.575770
     1383.800000       0.562490
     1383.900000       0.549180
     1384.000000       0.535860
     1384.100000       0.522490
     1384.200000       0.509160
     1384.300000       0.495870
     1384.400000       0.482660
     1384.500000       0.469540
     1384.600000       0.456530
     1384.700000       0.443650
     1384.800000       0.430920
     1384.900000       0.418340
     1385.000000       0.405950
     1385.100000       0.393750
     1385.200000       0.381750
     1385.300000       0.369960
     1385.400000       0.358390
     1385.500000       0.347040
     1385.600000       0.335920
     1385.700000       0.325040
     1385.800000       0.314390
     1385.900000       0.303970
     1386.000000       0.293780
     1386.100000       0.283840
     1386.200000       0.274130
     1386.300000       0.264640
     1386.400000       0.255380
     1386.500000       0.246340
     1386.600000       0.237520
     1386.700000       0.228910
     1386.800000       0.220520
     1386.900000       0.212350
     1387.000000       0.204390
     1387.100000       0.196650
     1387.200000       0.189120
     1387.300000       0.181820
     1387.400000       0.174740
     1387.500000       0.167880
     1387.600000       0.161240
     1387.700000       0.154830
     1387.800000       0.148650
     1387.900000       0.142690
     1388.000000       0.136950
     1388.100000       0.131420
     1388.200000       0.126110
     1388.300000       0.121000
     1388.400000       0.116110
     1388.500000       0.111410
     1388.600000       0.106900
     1388.700000       0.102580
     1388.800000       0.098437
     1388.900000       0.094459
     1389.000000       0.090639
     1389.100000       0.086972
     1389.200000       0.083450
     1389.300000       0.080065
     1389.400000       0.076812
     1389.500000       0.073685
     1389.600000       0.070679
     1389.700000       0.067790
     1389.800000       0.065015
     1389.900000       0.062351
     1390.000000       0.059796
     1390.100000       0.057344
     1390.200000       0.054997
     1390.300000       0.052754
     1390.400000       0.050613
     1390.500000       0.048572
     1390.600000       0.046628
     1390.700000       0.044778
     1390.800000       0.043019
     1390.900000       0.041347
     1391.000000       0.039757
     1391.100000       0.038244
     1391.200000       0.036801
     1391.300000       0.035424
     1391.400000       0.034106
     1391.500000       0.032843
     1391.600000       0.031628
     1391.700000       0.030456
     1391.800000       0.029324
     1391.900000       0.028228
     1392.000000       0.027165
     1392.100000       0.026134
     1392.200000       0.025134
     1392.300000       0.024163
     1392.400000       0.023223
     1392.500000       0.022315
     1392.600000       0.021441
     1392.700000       0.020603
     1392.800000       0.019804
     1392.900000       0.019045
     1393.000000       0.018329
     1393.100000       0.017658
     1393.200000       0.017032
     1393.300000       0.016452
     1393.400000       0.015916
     1393.500000       0.015423
     1393.600000       0.014971
     1393.700000       0.014556
     1393.800000       0.014174
     1393.900000       0.013820
     1394.000000       0.013488
     1394.100000       0.013172
     1394.200000       0.012868
     1394.300000       0.012568
     1394.400000       0.012269
     1394.500000       0.011966
     1394.600000       0.011654
     1394.700000       0.011333
     1394.800000       0.010998
     1394.900000       0.010651
     1395.000000       0.010291
     1395.100000       0.009921
     1395.200000       0.009543
     1395.300000       0.009160
     1395.400000       0.008777
     1395.500000       0.008400
     1395.600000       0.008032
     1395.700000       0.007680
     1395.800000       0.007348
     1395.900000       0.007041
     1396.000000       0.006762
     1396.100000       0.006513
     1396.200000       0.006296
     1396.300000       0.006114
     1396.400000       0.005964
     1396.500000       0.005845
     1396.600000       0.005755
     1396.700000       0.005689
     1396.800000       0.005644
     1396.900000       0.005614
     1397.000000       0.005594
     1397.100000       0.005577
     1397.200000       0.005559
     1397.300000       0.005535
     1397.400000       0.005499
     1397.500000       0.005449
     1397.600000       0.005381
     1397.700000       0.005294
     1397.800000       0.005187
     1397.900000       0.005060
     1398.000000       0.004916
     1398.100000       0.004758
     1398.200000       0.004587
     1398.300000       0.004409
     1398.400000       0.004227
     1398.500000       0.004046
     1398.600000       0.003872
     1398.700000       0.003710
     1398.800000       0.003562
     1398.900000       0.003433
     1399.000000       0.003326
     1399.100000       0.003242
     1399.200000       0.003183
     1399.300000       0.003148
     1399.400000       0.003136
     1399.500000       0.003145
     1399.600000       0.003172
     1399.700000       0.003213
     1399.800000       0.003264
     1399.900000       0.003319
     1400.000000       0.003374
     1400.100000       0.003422
     1400.200000       0.003459
     1400.300000       0.003482
     1400.400000       0.003484
     1400.500000       0.003464
     1400.600000       0.003419
     1400.700000       0.003348
     1400.800000       0.003249
     1400.900000       0.003124
     1401.000000       0.002974
     1401.100000       0.002802
     1401.200000       0.002612
     1401.300000       0.002406
     1401.400000       0.002191
     1401.500000       0.001972
     1401.600000       0.001753
     1401.700000       0.001541
     1401.800000       0.001340
     1401.900000       0.001157
     1402.000000       0.000994
     1402.100000       0.000857
     1402.200000       0.000748
     1402.300000       0.000669
     1402.400000       0.000623
     1402.500000       0.000610
     1402.600000       0.000630
     1402.700000       0.000680
     1402.800000       0.000760
     1402.900000       0.000867
     1403.000000       0.000996
     1403.100000       0.001144
     1403.200000       0.001308
     1403.300000       0.000000
