   2  ,noaa_18_hirs_02.flt
Number of data points:
458
Wavenumber (cm-1)   Filter response
      669.200000       0.000000
      669.250000       0.000450
      669.300000       0.001124
      669.350000       0.002982
      669.400000       0.004885
      669.450000       0.004896
      669.500000       0.005065
      669.550000       0.005077
      669.600000       0.005246
      669.650000       0.005257
      669.700000       0.005427
      669.750000       0.005439
      669.800000       0.005608
      669.850000       0.005620
      669.900000       0.005790
      669.950000       0.005802
      670.000000       0.005973
      670.050000       0.005985
      670.100000       0.006155
      670.150000       0.006167
      670.200000       0.006337
      670.250000       0.006349
      670.300000       0.006520
      670.350000       0.006532
      670.400000       0.006703
      670.450000       0.006715
      670.500000       0.006886
      670.550000       0.006899
      670.600000       0.007247
      670.650000       0.007266
      670.700000       0.007421
      670.750000       0.007714
      670.800000       0.008136
      670.850000       0.008633
      670.900000       0.009056
      670.950000       0.009425
      671.000000       0.009774
      671.050000       0.010144
      671.100000       0.010579
      671.150000       0.011124
      671.200000       0.011723
      671.250000       0.012275
      671.300000       0.012781
      671.350000       0.013254
      671.400000       0.013705
      671.450000       0.014150
      671.500000       0.014604
      671.550000       0.015083
      671.600000       0.015599
      671.650000       0.016163
      671.700000       0.016780
      671.750000       0.017457
      671.800000       0.018196
      671.850000       0.019001
      671.900000       0.019874
      671.950000       0.020817
      672.000000       0.021832
      672.050000       0.022924
      672.100000       0.024098
      672.150000       0.025362
      672.200000       0.026724
      672.250000       0.028196
      672.300000       0.029785
      672.350000       0.031503
      672.400000       0.033356
      672.450000       0.035354
      672.500000       0.037501
      672.550000       0.039804
      672.600000       0.042264
      672.650000       0.044882
      672.700000       0.047655
      672.750000       0.050582
      672.800000       0.053654
      672.850000       0.056867
      672.900000       0.060214
      672.950000       0.063690
      673.000000       0.067290
      673.050000       0.071013
      673.100000       0.074863
      673.150000       0.078846
      673.200000       0.082976
      673.250000       0.087269
      673.300000       0.091751
      673.350000       0.096452
      673.400000       0.101400
      673.450000       0.106640
      673.500000       0.112200
      673.550000       0.118100
      673.600000       0.124370
      673.650000       0.129480
      673.700000       0.135080
      673.750000       0.140190
      673.800000       0.144790
      673.850000       0.148990
      673.900000       0.153030
      673.950000       0.157210
      674.000000       0.161920
      674.050000       0.167580
      674.100000       0.174550
      674.150000       0.183150
      674.200000       0.193550
      674.250000       0.205790
      674.300000       0.219750
      674.350000       0.235150
      674.400000       0.251580
      674.450000       0.268570
      674.500000       0.285610
      674.550000       0.302220
      674.600000       0.318010
      674.650000       0.332700
      674.700000       0.346180
      674.750000       0.358480
      674.800000       0.369780
      674.850000       0.380350
      674.900000       0.390540
      674.950000       0.400700
      675.000000       0.411160
      675.050000       0.422160
      675.100000       0.433850
      675.150000       0.446240
      675.200000       0.459230
      675.250000       0.472700
      675.300000       0.486430
      675.350000       0.500170
      675.400000       0.513730
      675.450000       0.526930
      675.500000       0.539670
      675.550000       0.551920
      675.600000       0.563730
      675.650000       0.575180
      675.700000       0.586370
      675.750000       0.597390
      675.800000       0.608280
      675.850000       0.619030
      675.900000       0.629560
      675.950000       0.639720
      676.000000       0.649300
      676.050000       0.658040
      676.100000       0.665750
      676.150000       0.672270
      676.200000       0.677460
      676.250000       0.681300
      676.300000       0.683820
      676.350000       0.685170
      676.400000       0.685550
      676.450000       0.685180
      676.500000       0.684330
      676.550000       0.683210
      676.600000       0.682010
      676.650000       0.680840
      676.700000       0.679770
      676.750000       0.678790
      676.800000       0.677850
      676.850000       0.676880
      676.900000       0.675810
      676.950000       0.674610
      677.000000       0.673260
      677.050000       0.671810
      677.100000       0.670290
      677.150000       0.668850
      677.200000       0.667610
      677.250000       0.666660
      677.300000       0.666040
      677.350000       0.665740
      677.400000       0.665670
      677.450000       0.665690
      677.500000       0.665590
      677.550000       0.665140
      677.600000       0.664140
      677.650000       0.662430
      677.700000       0.659890
      677.750000       0.656540
      677.800000       0.652470
      677.850000       0.647890
      677.900000       0.643060
      677.950000       0.638320
      678.000000       0.633970
      678.050000       0.630330
      678.100000       0.627570
      678.150000       0.625790
      678.200000       0.624980
      678.250000       0.624980
      678.300000       0.625600
      678.350000       0.626540
      678.400000       0.627510
      678.450000       0.628220
      678.500000       0.628480
      678.550000       0.628160
      678.600000       0.627270
      678.650000       0.625910
      678.700000       0.624280
      678.750000       0.622640
      678.800000       0.621260
      678.850000       0.620420
      678.900000       0.620300
      678.950000       0.621030
      679.000000       0.622640
      679.050000       0.625040
      679.100000       0.628100
      679.150000       0.631620
      679.200000       0.635390
      679.250000       0.639250
      679.300000       0.643090
      679.350000       0.646870
      679.400000       0.650650
      679.450000       0.654540
      679.500000       0.658710
      679.550000       0.663330
      679.600000       0.668530
      679.650000       0.674390
      679.700000       0.680890
      679.750000       0.687880
      679.800000       0.695140
      679.850000       0.702340
      679.900000       0.709160
      679.950000       0.715250
      680.000000       0.720370
      680.050000       0.724390
      680.100000       0.727330
      680.150000       0.729370
      680.200000       0.730860
      680.250000       0.732290
      680.300000       0.734180
      680.350000       0.737100
      680.400000       0.741500
      680.450000       0.747730
      680.500000       0.755920
      680.550000       0.765970
      680.600000       0.777590
      680.650000       0.790250
      680.700000       0.803310
      680.750000       0.816040
      680.800000       0.827760
      680.850000       0.837880
      680.900000       0.845990
      680.950000       0.851920
      681.000000       0.855770
      681.050000       0.857880
      681.100000       0.858760
      681.150000       0.859100
      681.200000       0.859610
      681.250000       0.860950
      681.300000       0.863670
      681.350000       0.868090
      681.400000       0.874320
      681.450000       0.882170
      681.500000       0.891270
      681.550000       0.901040
      681.600000       0.910830
      681.650000       0.919940
      681.700000       0.927800
      681.750000       0.933960
      681.800000       0.938210
      681.850000       0.940560
      681.900000       0.941280
      681.950000       0.940810
      682.000000       0.939760
      682.050000       0.938890
      682.100000       0.938690
      682.150000       0.939690
      682.200000       0.942220
      682.250000       0.946410
      682.300000       0.952140
      682.350000       0.959130
      682.400000       0.966880
      682.450000       0.974830
      682.500000       0.982380
      682.550000       0.988980
      682.600000       0.994210
      682.650000       0.997800
      682.700000       0.999690
      682.750000       1.000000
      682.800000       0.999010
      682.850000       0.997130
      682.900000       0.994800
      682.950000       0.992500
      683.000000       0.990590
      683.050000       0.989340
      683.100000       0.988880
      683.150000       0.989140
      683.200000       0.989950
      683.250000       0.990980
      683.300000       0.991880
      683.350000       0.992250
      683.400000       0.991730
      683.450000       0.990070
      683.500000       0.987100
      683.550000       0.982810
      683.600000       0.977310
      683.650000       0.970820
      683.700000       0.963620
      683.750000       0.956050
      683.800000       0.948430
      683.850000       0.941010
      683.900000       0.934000
      683.950000       0.927480
      684.000000       0.921420
      684.050000       0.915590
      684.100000       0.909950
      684.150000       0.904280
      684.200000       0.898360
      684.250000       0.891990
      684.300000       0.885020
      684.350000       0.877380
      684.400000       0.869050
      684.450000       0.860110
      684.500000       0.850660
      684.550000       0.840850
      684.600000       0.830830
      684.650000       0.820720
      684.700000       0.810610
      684.750000       0.800510
      684.800000       0.790390
      684.850000       0.780150
      684.900000       0.769640
      684.950000       0.758720
      685.000000       0.747210
      685.050000       0.734970
      685.100000       0.721890
      685.150000       0.707950
      685.200000       0.693150
      685.250000       0.677580
      685.300000       0.661370
      685.350000       0.644690
      685.400000       0.627740
      685.450000       0.610720
      685.500000       0.593780
      685.550000       0.577070
      685.600000       0.560700
      685.650000       0.544700
      685.700000       0.529100
      685.750000       0.513880
      685.800000       0.498990
      685.850000       0.484390
      685.900000       0.470030
      685.950000       0.455890
      686.000000       0.441970
      686.050000       0.428400
      686.100000       0.415090
      686.150000       0.402090
      686.200000       0.389450
      686.250000       0.377220
      686.300000       0.365450
      686.350000       0.354160
      686.400000       0.343350
      686.450000       0.333010
      686.500000       0.323120
      686.550000       0.313650
      686.600000       0.304590
      686.650000       0.295900
      686.700000       0.287590
      686.750000       0.279660
      686.800000       0.272120
      686.850000       0.265000
      686.900000       0.258310
      686.950000       0.252030
      687.000000       0.246130
      687.050000       0.240530
      687.100000       0.235130
      687.150000       0.229780
      687.200000       0.224320
      687.250000       0.218550
      687.300000       0.212320
      687.350000       0.205470
      687.400000       0.197900
      687.450000       0.191590
      687.500000       0.180540
      687.550000       0.170900
      687.600000       0.160830
      687.650000       0.154600
      687.700000       0.148150
      687.750000       0.142060
      687.800000       0.138500
      687.850000       0.132820
      687.900000       0.127220
      687.950000       0.121720
      688.000000       0.116330
      688.050000       0.111060
      688.100000       0.105940
      688.150000       0.100980
      688.200000       0.096199
      688.250000       0.091629
      688.300000       0.087284
      688.350000       0.083178
      688.400000       0.079314
      688.450000       0.075691
      688.500000       0.072298
      688.550000       0.069121
      688.600000       0.066137
      688.650000       0.063320
      688.700000       0.060644
      688.750000       0.058083
      688.800000       0.055611
      688.850000       0.053208
      688.900000       0.050856
      688.950000       0.048545
      689.000000       0.046270
      689.050000       0.044029
      689.100000       0.041827
      689.150000       0.039668
      689.200000       0.037564
      689.250000       0.035525
      689.300000       0.033564
      689.350000       0.031692
      689.400000       0.029920
      689.450000       0.028254
      689.500000       0.026700
      689.550000       0.025260
      689.600000       0.023932
      689.650000       0.022716
      689.700000       0.021606
      689.750000       0.020595
      689.800000       0.019676
      689.850000       0.018840
      689.900000       0.018077
      689.950000       0.017378
      690.000000       0.016737
      690.050000       0.016139
      690.100000       0.015589
      690.150000       0.015084
      690.200000       0.014623
      690.250000       0.014208
      690.300000       0.013839
      690.350000       0.013519
      690.400000       0.013251
      690.450000       0.013037
      690.500000       0.012878
      690.550000       0.012774
      690.600000       0.012720
      690.650000       0.012708
      690.700000       0.012729
      690.750000       0.012770
      690.800000       0.012815
      690.850000       0.012848
      690.900000       0.012849
      690.950000       0.012801
      691.000000       0.012685
      691.050000       0.012489
      691.100000       0.012200
      691.150000       0.011812
      691.200000       0.011324
      691.250000       0.010777
      691.300000       0.010224
      691.350000       0.009668
      691.400000       0.009111
      691.450000       0.008557
      691.500000       0.008008
      691.550000       0.007675
      691.600000       0.007470
      691.650000       0.006909
      691.700000       0.006477
      691.750000       0.006228
      691.800000       0.005597
      691.850000       0.004028
      691.900000       0.002433
      691.950000       0.000903
      692.000000       0.000570
      692.050000       0.000000
