   5  ,noaa_18_hirs_05.flt
Number of data points:
378
Wavenumber (cm-1)   Filter response
      694.800000       0.000000
      694.900000       0.000924
      695.000000       0.001349
      695.100000       0.001364
      695.200000       0.000986
      695.300000       0.000295
      695.400000       0.000586
      695.500000       0.001496
      695.600000       0.002288
      695.700000       0.002841
      695.800000       0.003079
      695.900000       0.001491
      696.000000       0.001561
      696.100000       0.001621
      696.200000       0.001682
      696.300000       0.001753
      696.400000       0.001840
      696.500000       0.001892
      696.600000       0.001880
      696.700000       0.001814
      696.800000       0.001717
      696.900000       0.001614
      697.000000       0.001532
      697.100000       0.001494
      697.200000       0.001514
      697.300000       0.001596
      697.400000       0.001733
      697.500000       0.001910
      697.600000       0.002106
      697.700000       0.002301
      697.800000       0.002478
      697.900000       0.002627
      698.000000       0.002747
      698.100000       0.002846
      698.200000       0.002940
      698.300000       0.003049
      698.400000       0.003193
      698.500000       0.003387
      698.600000       0.003642
      698.700000       0.003956
      698.800000       0.004323
      698.900000       0.004731
      699.000000       0.005162
      699.100000       0.005600
      699.200000       0.006034
      699.300000       0.006459
      699.400000       0.006878
      699.500000       0.007301
      699.600000       0.007745
      699.700000       0.008231
      699.800000       0.008777
      699.900000       0.009399
      700.000000       0.010108
      700.100000       0.010906
      700.200000       0.011787
      700.300000       0.012740
      700.400000       0.012001
      700.500000       0.012721
      700.600000       0.013649
      700.700000       0.014811
      700.800000       0.016201
      700.900000       0.017782
      701.000000       0.019491
      701.100000       0.021252
      701.200000       0.022991
      701.300000       0.024643
      701.400000       0.026173
      701.500000       0.027578
      701.600000       0.028888
      701.700000       0.030168
      701.800000       0.031506
      701.900000       0.033003
      702.000000       0.034759
      702.100000       0.036856
      702.200000       0.039363
      702.300000       0.042314
      702.400000       0.045713
      702.500000       0.049540
      702.600000       0.053757
      702.700000       0.058322
      702.800000       0.063195
      702.900000       0.068353
      703.000000       0.073798
      703.100000       0.079557
      703.200000       0.085682
      703.300000       0.092248
      703.400000       0.099340
      703.500000       0.107050
      703.600000       0.115450
      703.700000       0.124620
      703.800000       0.134610
      703.900000       0.145440
      704.000000       0.157140
      704.100000       0.169700
      704.200000       0.183130
      704.300000       0.197460
      704.400000       0.212680
      704.500000       0.228830
      704.600000       0.245930
      704.700000       0.264000
      704.800000       0.283040
      704.900000       0.303030
      705.000000       0.323930
      705.100000       0.345670
      705.200000       0.368140
      705.300000       0.391240
      705.400000       0.414830
      705.500000       0.438800
      705.600000       0.463040
      705.700000       0.487480
      705.800000       0.512060
      705.900000       0.536740
      706.000000       0.561520
      706.100000       0.586430
      706.200000       0.611360
      706.300000       0.636230
      706.400000       0.660910
      706.500000       0.685230
      706.600000       0.708980
      706.700000       0.731940
      706.800000       0.753870
      706.900000       0.774600
      707.000000       0.793950
      707.100000       0.811840
      707.200000       0.828270
      707.300000       0.843270
      707.400000       0.856960
      707.500000       0.869470
      707.600000       0.880930
      707.700000       0.891470
      707.800000       0.901140
      707.900000       0.909970
      708.000000       0.917880
      708.100000       0.924830
      708.200000       0.930700
      708.300000       0.935390
      708.400000       0.938850
      708.500000       0.941050
      708.600000       0.942040
      708.700000       0.941950
      708.800000       0.940970
      708.900000       0.939300
      709.000000       0.937190
      709.100000       0.934840
      709.200000       0.932420
      709.300000       0.930070
      709.400000       0.927820
      709.500000       0.925660
      709.600000       0.923540
      709.700000       0.921370
      709.800000       0.919070
      709.900000       0.916570
      710.000000       0.913850
      710.100000       0.910770
      710.200000       0.907560
      710.300000       0.904320
      710.400000       0.901180
      710.500000       0.898230
      710.600000       0.895570
      710.700000       0.893260
      710.800000       0.891300
      710.900000       0.889660
      711.000000       0.888260
      711.100000       0.887020
      711.200000       0.885840
      711.300000       0.884660
      711.400000       0.883430
      711.500000       0.882130
      711.600000       0.880810
      711.700000       0.879510
      711.800000       0.878330
      711.900000       0.877330
      712.000000       0.876610
      712.100000       0.876200
      712.200000       0.876160
      712.300000       0.876490
      712.400000       0.877160
      712.500000       0.878100
      712.600000       0.879240
      712.700000       0.880480
      712.800000       0.881770
      712.900000       0.883030
      713.000000       0.884240
      713.100000       0.885390
      713.200000       0.886500
      713.300000       0.887640
      713.400000       0.888870
      713.500000       0.890270
      713.600000       0.891900
      713.700000       0.893830
      713.800000       0.896090
      713.900000       0.898680
      714.000000       0.901580
      714.100000       0.904540
      714.200000       0.907660
      714.300000       0.910850
      714.400000       0.914020
      714.500000       0.917100
      714.600000       0.920030
      714.700000       0.922790
      714.800000       0.925390
      714.900000       0.927890
      715.000000       0.930340
      715.100000       0.932830
      715.200000       0.935430
      715.300000       0.938210
      715.400000       0.941190
      715.500000       0.944370
      715.600000       0.947710
      715.700000       0.951170
      715.800000       0.954650
      715.900000       0.958050
      716.000000       0.961290
      716.100000       0.964540
      716.200000       0.967570
      716.300000       0.970390
      716.400000       0.973050
      716.500000       0.975620
      716.600000       0.978160
      716.700000       0.980730
      716.800000       0.983350
      716.900000       0.986000
      717.000000       0.988650
      717.100000       0.991190
      717.200000       0.993530
      717.300000       0.995570
      717.400000       0.997230
      717.500000       0.998460
      717.600000       0.999290
      717.700000       0.999800
      717.800000       1.000000
      717.900000       1.000000
      718.000000       0.999900
      718.100000       0.999650
      718.200000       0.999450
      718.300000       0.999310
      718.400000       0.999190
      718.500000       0.998990
      718.600000       0.998600
      718.700000       0.997890
      718.800000       0.996770
      718.900000       0.995140
      719.000000       0.992990
      719.100000       0.990310
      719.200000       0.987170
      719.300000       0.983620
      719.400000       0.979760
      719.500000       0.975650
      719.600000       0.971380
      719.700000       0.966840
      719.800000       0.961930
      719.900000       0.956550
      720.000000       0.950540
      720.100000       0.943660
      720.200000       0.935870
      720.300000       0.927090
      720.400000       0.917260
      720.500000       0.906420
      720.600000       0.894630
      720.700000       0.881980
      720.800000       0.868570
      720.900000       0.854520
      721.000000       0.839900
      721.100000       0.824730
      721.200000       0.809010
      721.300000       0.792680
      721.400000       0.775670
      721.500000       0.757930
      721.600000       0.739380
      721.700000       0.719950
      721.800000       0.699670
      721.900000       0.678590
      722.000000       0.656800
      722.100000       0.634530
      722.200000       0.611840
      722.300000       0.588890
      722.400000       0.565830
      722.500000       0.542820
      722.600000       0.519960
      722.700000       0.497360
      722.800000       0.475100
      722.900000       0.453220
      723.000000       0.431780
      723.100000       0.410810
      723.200000       0.390340
      723.300000       0.370390
      723.400000       0.350980
      723.500000       0.332120
      723.600000       0.313810
      723.700000       0.296050
      723.800000       0.278820
      723.900000       0.262140
      724.000000       0.246030
      724.100000       0.230470
      724.200000       0.215570
      724.300000       0.201400
      724.400000       0.188030
      724.500000       0.175530
      724.600000       0.163940
      724.700000       0.153260
      724.800000       0.143480
      724.900000       0.134520
      725.000000       0.126260
      725.100000       0.118570
      725.200000       0.111290
      725.300000       0.104310
      725.400000       0.097499
      725.500000       0.090814
      725.600000       0.084243
      725.700000       0.077832
      725.800000       0.071663
      725.900000       0.065842
      726.000000       0.060475
      726.100000       0.055651
      726.200000       0.051408
      726.300000       0.047746
      726.400000       0.044612
      726.500000       0.041917
      726.600000       0.039546
      726.700000       0.037380
      726.800000       0.035318
      726.900000       0.033289
      727.000000       0.031262
      727.100000       0.029250
      727.200000       0.027297
      727.300000       0.025467
      727.400000       0.023827
      727.500000       0.022428
      727.600000       0.021293
      727.700000       0.020413
      727.800000       0.019742
      727.900000       0.019212
      728.000000       0.018739
      728.100000       0.018244
      728.200000       0.017662
      728.300000       0.016955
      728.400000       0.016117
      728.500000       0.015170
      728.600000       0.014160
      728.700000       0.013145
      728.800000       0.013067
      728.900000       0.012495
      729.000000       0.011933
      729.100000       0.011374
      729.200000       0.010817
      729.300000       0.010263
      729.400000       0.009713
      729.500000       0.009171
      729.600000       0.008642
      729.700000       0.008130
      729.800000       0.007640
      729.900000       0.007177
      730.000000       0.006745
      730.100000       0.006351
      730.200000       0.006000
      730.300000       0.005696
      730.400000       0.005440
      730.500000       0.005230
      730.600000       0.005059
      730.700000       0.004915
      730.800000       0.004785
      730.900000       0.004650
      731.000000       0.004495
      731.100000       0.004307
      731.200000       0.004079
      731.300000       0.003814
      731.400000       0.003535
      731.500000       0.003419
      731.600000       0.003303
      731.700000       0.003187
      731.800000       0.003071
      731.900000       0.002955
      732.000000       0.002838
      732.100000       0.002722
      732.200000       0.002246
      732.300000       0.000988
      732.400000       0.000149
      732.500000       0.000000
