   6  ,noaa_18_hirs_06.flt
Number of data points:
388
Wavenumber (cm-1)   Filter response
      712.800000       0.000000
      712.900000       0.002135
      713.000000       0.002092
      713.100000       0.002213
      713.200000       0.002551
      713.300000       0.003135
      713.400000       0.003953
      713.500000       0.004943
      713.600000       0.006005
      713.700000       0.007018
      713.800000       0.007868
      713.900000       0.006298
      714.000000       0.006638
      714.100000       0.007007
      714.200000       0.007393
      714.300000       0.007781
      714.400000       0.008149
      714.500000       0.008481
      714.600000       0.008769
      714.700000       0.009012
      714.800000       0.009221
      714.900000       0.009416
      715.000000       0.009623
      715.100000       0.009868
      715.200000       0.010174
      715.300000       0.010555
      715.400000       0.011015
      715.500000       0.011544
      715.600000       0.012126
      715.700000       0.012738
      715.800000       0.013354
      715.900000       0.013956
      716.000000       0.014532
      716.100000       0.015084
      716.200000       0.015620
      716.300000       0.016160
      716.400000       0.016727
      716.500000       0.017346
      716.600000       0.018036
      716.700000       0.018808
      716.800000       0.019663
      716.900000       0.020591
      717.000000       0.021578
      717.100000       0.022606
      717.200000       0.023657
      717.300000       0.024724
      717.400000       0.025809
      717.500000       0.026922
      717.600000       0.028089
      717.700000       0.029340
      717.800000       0.030705
      717.900000       0.032214
      718.000000       0.033890
      718.100000       0.035743
      718.200000       0.037782
      718.300000       0.040002
      718.400000       0.042394
      718.500000       0.044947
      718.600000       0.047651
      718.700000       0.050506
      718.800000       0.052311
      718.900000       0.053520
      719.000000       0.055892
      719.100000       0.059694
      719.200000       0.063655
      719.300000       0.067730
      719.400000       0.071904
      719.500000       0.076200
      719.600000       0.080681
      719.700000       0.085419
      719.800000       0.090500
      719.900000       0.096006
      720.000000       0.102000
      720.100000       0.108510
      720.200000       0.115550
      720.300000       0.123130
      720.400000       0.131210
      720.500000       0.139800
      720.600000       0.148870
      720.700000       0.158430
      720.800000       0.168510
      720.900000       0.179120
      721.000000       0.190300
      721.100000       0.202050
      721.200000       0.214350
      721.300000       0.227180
      721.400000       0.240480
      721.500000       0.254200
      721.600000       0.268290
      721.700000       0.282710
      721.800000       0.297450
      721.900000       0.312550
      722.000000       0.328070
      722.100000       0.344140
      722.200000       0.360800
      722.300000       0.378100
      722.400000       0.396060
      722.500000       0.414630
      722.600000       0.433700
      722.700000       0.453100
      722.800000       0.472610
      722.900000       0.492030
      723.000000       0.511140
      723.100000       0.529790
      723.200000       0.547870
      723.300000       0.565380
      723.400000       0.582360
      723.500000       0.598910
      723.600000       0.615120
      723.700000       0.631100
      723.800000       0.646910
      723.900000       0.662580
      724.000000       0.678040
      724.100000       0.693010
      724.200000       0.707540
      724.300000       0.721470
      724.400000       0.734680
      724.500000       0.747100
      724.600000       0.758700
      724.700000       0.769540
      724.800000       0.779720
      724.900000       0.789350
      725.000000       0.798590
      725.100000       0.807520
      725.200000       0.816220
      725.300000       0.824680
      725.400000       0.832890
      725.500000       0.840710
      725.600000       0.848060
      725.700000       0.854830
      725.800000       0.860970
      725.900000       0.866480
      726.000000       0.871450
      726.100000       0.876060
      726.200000       0.880410
      726.300000       0.884660
      726.400000       0.888980
      726.500000       0.893450
      726.600000       0.898100
      726.700000       0.902910
      726.800000       0.907760
      726.900000       0.912540
      727.000000       0.917070
      727.100000       0.921250
      727.200000       0.925000
      727.300000       0.928320
      727.400000       0.931270
      727.500000       0.933930
      727.600000       0.936460
      727.700000       0.939000
      727.800000       0.941670
      727.900000       0.944540
      728.000000       0.947620
      728.100000       0.950920
      728.200000       0.954280
      728.300000       0.957560
      728.400000       0.960630
      728.500000       0.963400
      728.600000       0.965810
      728.700000       0.967860
      728.800000       0.969620
      728.900000       0.971200
      729.000000       0.972720
      729.100000       0.974320
      729.200000       0.976090
      729.300000       0.978090
      729.400000       0.980330
      729.500000       0.982760
      729.600000       0.985280
      729.700000       0.987780
      729.800000       0.990130
      729.900000       0.992230
      730.000000       0.994020
      730.100000       0.995420
      730.200000       0.996490
      730.300000       0.997280
      730.400000       0.997860
      730.500000       0.998290
      730.600000       0.998650
      730.700000       0.998970
      730.800000       0.999260
      730.900000       0.999530
      731.000000       0.999760
      731.100000       0.999920
      731.200000       1.000000
      731.300000       0.999970
      731.400000       0.999830
      731.500000       0.999610
      731.600000       0.999320
      731.700000       0.998990
      731.800000       0.998670
      731.900000       0.998370
      732.000000       0.998100
      732.100000       0.997870
      732.200000       0.997650
      732.300000       0.997430
      732.400000       0.997180
      732.500000       0.996910
      732.600000       0.996610
      732.700000       0.996290
      732.800000       0.995970
      732.900000       0.995670
      733.000000       0.995410
      733.100000       0.995250
      733.200000       0.995140
      733.300000       0.995060
      733.400000       0.995000
      733.500000       0.994930
      733.600000       0.994820
      733.700000       0.994650
      733.800000       0.994430
      733.900000       0.994140
      734.000000       0.993790
      734.100000       0.993360
      734.200000       0.992900
      734.300000       0.992420
      734.400000       0.991910
      734.500000       0.991350
      734.600000       0.990730
      734.700000       0.990020
      734.800000       0.989190
      734.900000       0.988220
      735.000000       0.987120
      735.100000       0.985880
      735.200000       0.984490
      735.300000       0.983000
      735.400000       0.981410
      735.500000       0.979740
      735.600000       0.978000
      735.700000       0.976170
      735.800000       0.974230
      735.900000       0.972130
      736.000000       0.969840
      736.100000       0.967580
      736.200000       0.965030
      736.300000       0.962170
      736.400000       0.959000
      736.500000       0.955520
      736.600000       0.951730
      736.700000       0.947640
      736.800000       0.943240
      736.900000       0.938520
      737.000000       0.933420
      737.100000       0.927870
      737.200000       0.921780
      737.300000       0.915040
      737.400000       0.907570
      737.500000       0.899280
      737.600000       0.890120
      737.700000       0.880070
      737.800000       0.869140
      737.900000       0.857380
      738.000000       0.844850
      738.100000       0.831650
      738.200000       0.817810
      738.300000       0.803380
      738.400000       0.788390
      738.500000       0.772840
      738.600000       0.756700
      738.700000       0.739970
      738.800000       0.722610
      738.900000       0.704630
      739.000000       0.686060
      739.100000       0.666950
      739.200000       0.647390
      739.300000       0.627510
      739.400000       0.607440
      739.500000       0.587310
      739.600000       0.567230
      739.700000       0.547310
      739.800000       0.527570
      739.900000       0.508050
      740.000000       0.488710
      740.100000       0.469410
      740.200000       0.450230
      740.300000       0.431130
      740.400000       0.412120
      740.500000       0.393220
      740.600000       0.374500
      740.700000       0.356070
      740.800000       0.338040
      740.900000       0.320550
      741.000000       0.303700
      741.100000       0.287580
      741.200000       0.272240
      741.300000       0.257690
      741.400000       0.243890
      741.500000       0.230790
      741.600000       0.218290
      741.700000       0.206320
      741.800000       0.194830
      741.900000       0.183760
      742.000000       0.173130
      742.100000       0.162960
      742.200000       0.153280
      742.300000       0.144150
      742.400000       0.135620
      742.500000       0.127730
      742.600000       0.120470
      742.700000       0.113810
      742.800000       0.107690
      742.900000       0.102030
      743.000000       0.096725
      743.100000       0.091689
      743.200000       0.086842
      743.300000       0.082131
      743.400000       0.077537
      743.500000       0.073066
      743.600000       0.068748
      743.700000       0.064625
      743.800000       0.060740
      743.900000       0.057123
      744.000000       0.054647
      744.100000       0.053815
      744.200000       0.051712
      744.300000       0.048945
      744.400000       0.046377
      744.500000       0.044007
      744.600000       0.041829
      744.700000       0.039830
      744.800000       0.037990
      744.900000       0.036285
      745.000000       0.034692
      745.100000       0.033187
      745.200000       0.031752
      745.300000       0.030376
      745.400000       0.029056
      745.500000       0.027794
      745.600000       0.026598
      745.700000       0.025478
      745.800000       0.024441
      745.900000       0.023491
      746.000000       0.022624
      746.100000       0.021829
      746.200000       0.021089
      746.300000       0.020385
      746.400000       0.019694
      746.500000       0.018995
      746.600000       0.018276
      746.700000       0.017528
      746.800000       0.016755
      746.900000       0.015963
      747.000000       0.015167
      747.100000       0.014383
      747.200000       0.013626
      747.300000       0.012907
      747.400000       0.012231
      747.500000       0.011599
      747.600000       0.011004
      747.700000       0.010440
      747.800000       0.009900
      747.900000       0.009380
      748.000000       0.008880
      748.100000       0.008408
      748.200000       0.007974
      748.300000       0.007591
      748.400000       0.007272
      748.500000       0.007027
      748.600000       0.006862
      748.700000       0.006773
      748.800000       0.006750
      748.900000       0.006778
      749.000000       0.006837
      749.100000       0.006909
      749.200000       0.006976
      749.300000       0.007028
      749.400000       0.007060
      749.500000       0.007072
      749.600000       0.007070
      749.700000       0.007060
      749.800000       0.007044
      749.900000       0.007025
      750.000000       0.006996
      750.100000       0.006945
      750.200000       0.006858
      750.300000       0.006720
      750.400000       0.006521
      750.500000       0.005075
      750.600000       0.004202
      750.700000       0.003588
      750.800000       0.003219
      750.900000       0.003043
      751.000000       0.002978
      751.100000       0.002939
      751.200000       0.002860
      751.300000       0.002722
      751.400000       0.002545
      751.500000       0.000000
