  12  ,noaa_18_hirs_12.flt
Number of data points:
871
Wavenumber (cm-1)   Filter response
     1491.200000       0.000000
     1491.300000       0.000217
     1491.400000       0.000434
     1491.500000       0.000762
     1491.600000       0.001128
     1491.700000       0.001511
     1491.800000       0.001897
     1491.900000       0.002272
     1492.000000       0.002625
     1492.100000       0.002945
     1492.200000       0.003223
     1492.300000       0.002707
     1492.400000       0.002838
     1492.500000       0.002953
     1492.600000       0.003047
     1492.700000       0.003119
     1492.800000       0.003172
     1492.900000       0.003207
     1493.000000       0.003227
     1493.100000       0.003237
     1493.200000       0.003240
     1493.300000       0.003240
     1493.400000       0.003243
     1493.500000       0.003253
     1493.600000       0.003274
     1493.700000       0.003311
     1493.800000       0.003367
     1493.900000       0.003448
     1494.000000       0.003554
     1494.100000       0.003689
     1494.200000       0.003855
     1494.300000       0.004050
     1494.400000       0.004276
     1494.500000       0.004532
     1494.600000       0.004817
     1494.700000       0.005128
     1494.800000       0.005465
     1494.900000       0.005824
     1495.000000       0.006205
     1495.100000       0.006604
     1495.200000       0.007020
     1495.300000       0.007451
     1495.400000       0.007894
     1495.500000       0.008349
     1495.600000       0.008815
     1495.700000       0.009292
     1495.800000       0.009779
     1495.900000       0.010277
     1496.000000       0.010787
     1496.100000       0.011314
     1496.200000       0.011857
     1496.300000       0.012417
     1496.400000       0.012997
     1496.500000       0.013599
     1496.600000       0.014225
     1496.700000       0.014879
     1496.800000       0.015561
     1496.900000       0.016273
     1497.000000       0.017017
     1497.100000       0.017794
     1497.200000       0.018607
     1497.300000       0.019456
     1497.400000       0.020343
     1497.500000       0.021269
     1497.600000       0.022234
     1497.700000       0.023238
     1497.800000       0.024283
     1497.900000       0.025369
     1498.000000       0.026495
     1498.100000       0.027665
     1498.200000       0.028878
     1498.300000       0.030135
     1498.400000       0.031439
     1498.500000       0.032791
     1498.600000       0.034193
     1498.700000       0.035648
     1498.800000       0.037154
     1498.900000       0.038704
     1499.000000       0.040313
     1499.100000       0.040703
     1499.200000       0.042353
     1499.300000       0.044075
     1499.400000       0.045874
     1499.500000       0.047756
     1499.600000       0.049723
     1499.700000       0.051779
     1499.800000       0.053927
     1499.900000       0.056169
     1500.000000       0.058505
     1500.100000       0.060930
     1500.200000       0.063450
     1500.300000       0.066066
     1500.400000       0.068777
     1500.500000       0.071584
     1500.600000       0.074489
     1500.700000       0.077492
     1500.800000       0.080575
     1500.900000       0.083760
     1501.000000       0.087052
     1501.100000       0.090457
     1501.200000       0.093984
     1501.300000       0.097642
     1501.400000       0.101440
     1501.500000       0.105390
     1501.600000       0.109510
     1501.700000       0.113800
     1501.800000       0.118290
     1501.900000       0.122970
     1502.000000       0.127880
     1502.100000       0.133000
     1502.200000       0.138360
     1502.300000       0.143960
     1502.400000       0.149830
     1502.500000       0.155950
     1502.600000       0.162350
     1502.700000       0.169010
     1502.800000       0.175950
     1502.900000       0.183160
     1503.000000       0.190610
     1503.100000       0.198320
     1503.200000       0.206260
     1503.300000       0.214420
     1503.400000       0.222780
     1503.500000       0.231340
     1503.600000       0.240080
     1503.700000       0.248980
     1503.800000       0.258020
     1503.900000       0.267190
     1504.000000       0.276470
     1504.100000       0.285910
     1504.200000       0.295440
     1504.300000       0.305070
     1504.400000       0.314770
     1504.500000       0.324540
     1504.600000       0.334410
     1504.700000       0.344410
     1504.800000       0.354490
     1504.900000       0.364640
     1505.000000       0.374870
     1505.100000       0.385180
     1505.200000       0.395570
     1505.300000       0.406050
     1505.400000       0.416610
     1505.500000       0.427280
     1505.600000       0.438030
     1505.700000       0.448880
     1505.800000       0.459810
     1505.900000       0.470830
     1506.000000       0.481930
     1506.100000       0.493220
     1506.200000       0.504570
     1506.300000       0.515970
     1506.400000       0.527400
     1506.500000       0.538830
     1506.600000       0.550500
     1506.700000       0.562140
     1506.800000       0.573730
     1506.900000       0.585260
     1507.000000       0.596690
     1507.100000       0.608010
     1507.200000       0.619200
     1507.300000       0.630230
     1507.400000       0.641080
     1507.500000       0.651750
     1507.600000       0.662210
     1507.700000       0.672440
     1507.800000       0.682450
     1507.900000       0.692210
     1508.000000       0.701730
     1508.100000       0.711000
     1508.200000       0.720010
     1508.300000       0.728760
     1508.400000       0.737250
     1508.500000       0.745820
     1508.600000       0.754290
     1508.700000       0.762510
     1508.800000       0.770490
     1508.900000       0.778230
     1509.000000       0.785720
     1509.100000       0.792990
     1509.200000       0.800020
     1509.300000       0.806820
     1509.400000       0.813380
     1509.500000       0.819720
     1509.600000       0.825820
     1509.700000       0.831700
     1509.800000       0.837350
     1509.900000       0.842780
     1510.000000       0.847980
     1510.100000       0.853030
     1510.200000       0.857860
     1510.300000       0.862480
     1510.400000       0.867010
     1510.500000       0.871500
     1510.600000       0.875800
     1510.700000       0.879900
     1510.800000       0.883820
     1510.900000       0.887560
     1511.000000       0.891130
     1511.100000       0.894550
     1511.200000       0.897820
     1511.300000       0.900940
     1511.400000       0.903940
     1511.500000       0.906810
     1511.600000       0.909570
     1511.700000       0.912220
     1511.800000       0.914770
     1511.900000       0.917230
     1512.000000       0.919620
     1512.100000       0.921990
     1512.200000       0.924280
     1512.300000       0.926470
     1512.400000       0.928250
     1512.500000       0.929980
     1512.600000       0.931640
     1512.700000       0.933250
     1512.800000       0.934790
     1512.900000       0.936280
     1513.000000       0.937710
     1513.100000       0.939080
     1513.200000       0.940410
     1513.300000       0.941690
     1513.400000       0.942920
     1513.500000       0.944110
     1513.600000       0.945260
     1513.700000       0.946370
     1513.800000       0.947460
     1513.900000       0.948520
     1514.000000       0.949560
     1514.100000       0.950560
     1514.200000       0.951560
     1514.300000       0.951960
     1514.400000       0.952200
     1514.500000       0.952440
     1514.600000       0.952670
     1514.700000       0.952890
     1514.800000       0.953100
     1514.900000       0.953300
     1515.000000       0.953480
     1515.100000       0.953630
     1515.200000       0.953760
     1515.300000       0.953860
     1515.400000       0.953930
     1515.500000       0.953960
     1515.600000       0.953950
     1515.700000       0.953900
     1515.800000       0.953800
     1515.900000       0.953660
     1516.000000       0.953470
     1516.100000       0.953440
     1516.200000       0.953160
     1516.300000       0.952650
     1516.400000       0.952120
     1516.500000       0.951550
     1516.600000       0.950980
     1516.700000       0.950390
     1516.800000       0.949810
     1516.900000       0.949240
     1517.000000       0.948700
     1517.100000       0.948190
     1517.200000       0.947720
     1517.300000       0.947300
     1517.400000       0.946930
     1517.500000       0.946610
     1517.600000       0.946360
     1517.700000       0.946150
     1517.800000       0.946000
     1517.900000       0.945890
     1518.000000       0.945820
     1518.100000       0.945940
     1518.200000       0.946170
     1518.300000       0.946400
     1518.400000       0.946610
     1518.500000       0.946800
     1518.600000       0.946930
     1518.700000       0.947000
     1518.800000       0.947000
     1518.900000       0.946900
     1519.000000       0.946700
     1519.100000       0.946380
     1519.200000       0.945950
     1519.300000       0.945390
     1519.400000       0.944710
     1519.500000       0.943910
     1519.600000       0.943000
     1519.700000       0.941990
     1519.800000       0.940890
     1519.900000       0.939720
     1520.000000       0.938490
     1520.100000       0.937700
     1520.200000       0.936900
     1520.300000       0.936110
     1520.400000       0.935340
     1520.500000       0.934610
     1520.600000       0.933960
     1520.700000       0.933380
     1520.800000       0.932900
     1520.900000       0.932530
     1521.000000       0.932270
     1521.100000       0.932130
     1521.200000       0.932110
     1521.300000       0.932210
     1521.400000       0.932430
     1521.500000       0.932750
     1521.600000       0.933170
     1521.700000       0.933670
     1521.800000       0.934230
     1521.900000       0.934830
     1522.000000       0.935770
     1522.100000       0.936910
     1522.200000       0.938050
     1522.300000       0.939150
     1522.400000       0.940200
     1522.500000       0.941190
     1522.600000       0.942100
     1522.700000       0.942930
     1522.800000       0.943660
     1522.900000       0.944300
     1523.000000       0.944830
     1523.100000       0.945280
     1523.200000       0.945630
     1523.300000       0.945900
     1523.400000       0.946090
     1523.500000       0.946210
     1523.600000       0.946280
     1523.700000       0.946300
     1523.800000       0.946300
     1523.900000       0.946400
     1524.000000       0.946670
     1524.100000       0.946930
     1524.200000       0.947210
     1524.300000       0.947520
     1524.400000       0.947860
     1524.500000       0.948230
     1524.600000       0.948640
     1524.700000       0.949100
     1524.800000       0.949600
     1524.900000       0.950140
     1525.000000       0.950720
     1525.100000       0.951340
     1525.200000       0.951980
     1525.300000       0.952660
     1525.400000       0.953360
     1525.500000       0.954080
     1525.600000       0.954820
     1525.700000       0.955580
     1525.800000       0.956350
     1525.900000       0.957130
     1526.000000       0.957930
     1526.100000       0.958750
     1526.200000       0.959600
     1526.300000       0.960480
     1526.400000       0.961370
     1526.500000       0.962300
     1526.600000       0.963270
     1526.700000       0.964270
     1526.800000       0.965300
     1526.900000       0.966380
     1527.000000       0.967490
     1527.100000       0.968630
     1527.200000       0.969800
     1527.300000       0.971010
     1527.400000       0.972230
     1527.500000       0.973470
     1527.600000       0.974720
     1527.700000       0.975970
     1527.800000       0.977030
     1527.900000       0.978030
     1528.000000       0.979000
     1528.100000       0.979710
     1528.200000       0.980390
     1528.300000       0.981010
     1528.400000       0.981590
     1528.500000       0.982120
     1528.600000       0.982600
     1528.700000       0.983030
     1528.800000       0.983420
     1528.900000       0.983780
     1529.000000       0.984110
     1529.100000       0.984430
     1529.200000       0.984740
     1529.300000       0.985070
     1529.400000       0.985430
     1529.500000       0.985820
     1529.600000       0.986270
     1529.700000       0.986580
     1529.800000       0.986760
     1529.900000       0.987030
     1530.000000       0.987380
     1530.100000       0.987890
     1530.200000       0.988490
     1530.300000       0.989180
     1530.400000       0.989950
     1530.500000       0.990780
     1530.600000       0.991670
     1530.700000       0.992600
     1530.800000       0.993550
     1530.900000       0.994520
     1531.000000       0.995470
     1531.100000       0.996400
     1531.200000       0.997290
     1531.300000       0.998120
     1531.400000       0.998880
     1531.500000       0.999550
     1531.600000       1.000000
     1531.700000       0.999850
     1531.800000       0.999600
     1531.900000       0.999240
     1532.000000       0.998790
     1532.100000       0.998260
     1532.200000       0.997640
     1532.300000       0.996960
     1532.400000       0.996220
     1532.500000       0.995450
     1532.600000       0.994650
     1532.700000       0.993860
     1532.800000       0.993080
     1532.900000       0.992340
     1533.000000       0.991640
     1533.100000       0.991000
     1533.200000       0.990440
     1533.300000       0.989950
     1533.400000       0.989560
     1533.500000       0.989260
     1533.600000       0.988530
     1533.700000       0.987840
     1533.800000       0.987230
     1533.900000       0.986700
     1534.000000       0.986230
     1534.100000       0.985560
     1534.200000       0.984930
     1534.300000       0.984340
     1534.400000       0.983770
     1534.500000       0.983220
     1534.600000       0.982660
     1534.700000       0.982090
     1534.800000       0.981490
     1534.900000       0.980870
     1535.000000       0.980220
     1535.100000       0.979520
     1535.200000       0.978790
     1535.300000       0.978010
     1535.400000       0.977190
     1535.500000       0.976260
     1535.600000       0.975260
     1535.700000       0.974210
     1535.800000       0.973130
     1535.900000       0.972010
     1536.000000       0.970850
     1536.100000       0.969530
     1536.200000       0.968170
     1536.300000       0.966770
     1536.400000       0.965320
     1536.500000       0.963820
     1536.600000       0.962260
     1536.700000       0.960640
     1536.800000       0.958950
     1536.900000       0.957180
     1537.000000       0.955340
     1537.100000       0.953410
     1537.200000       0.951390
     1537.300000       0.949270
     1537.400000       0.947240
     1537.500000       0.945390
     1537.600000       0.943460
     1537.700000       0.941440
     1537.800000       0.939350
     1537.900000       0.937210
     1538.000000       0.935040
     1538.100000       0.933030
     1538.200000       0.931010
     1538.300000       0.928990
     1538.400000       0.926990
     1538.500000       0.925040
     1538.600000       0.923150
     1538.700000       0.921340
     1538.800000       0.919610
     1538.900000       0.917990
     1539.000000       0.916490
     1539.100000       0.915110
     1539.200000       0.913860
     1539.300000       0.912790
     1539.400000       0.912420
     1539.500000       0.912160
     1539.600000       0.912010
     1539.700000       0.911950
     1539.800000       0.911970
     1539.900000       0.912040
     1540.000000       0.912150
     1540.100000       0.912240
     1540.200000       0.912330
     1540.300000       0.912400
     1540.400000       0.912430
     1540.500000       0.912390
     1540.600000       0.912270
     1540.700000       0.912070
     1540.800000       0.911760
     1540.900000       0.911340
     1541.000000       0.910810
     1541.100000       0.910170
     1541.200000       0.909420
     1541.300000       0.909130
     1541.400000       0.908880
     1541.500000       0.908540
     1541.600000       0.908120
     1541.700000       0.907650
     1541.800000       0.907120
     1541.900000       0.906570
     1542.000000       0.905990
     1542.100000       0.905470
     1542.200000       0.904940
     1542.300000       0.904430
     1542.400000       0.903930
     1542.500000       0.903460
     1542.600000       0.903000
     1542.700000       0.902570
     1542.800000       0.902160
     1542.900000       0.901760
     1543.000000       0.901370
     1543.100000       0.900970
     1543.200000       0.900840
     1543.300000       0.900960
     1543.400000       0.901040
     1543.500000       0.901080
     1543.600000       0.901060
     1543.700000       0.900970
     1543.800000       0.900820
     1543.900000       0.900590
     1544.000000       0.900280
     1544.100000       0.899670
     1544.200000       0.898990
     1544.300000       0.898220
     1544.400000       0.897390
     1544.500000       0.896480
     1544.600000       0.895520
     1544.700000       0.894500
     1544.800000       0.893450
     1544.900000       0.892360
     1545.000000       0.891250
     1545.100000       0.890140
     1545.200000       0.889130
     1545.300000       0.888130
     1545.400000       0.887120
     1545.500000       0.886120
     1545.600000       0.885120
     1545.700000       0.884130
     1545.800000       0.883140
     1545.900000       0.882150
     1546.000000       0.881150
     1546.100000       0.880060
     1546.200000       0.878960
     1546.300000       0.877830
     1546.400000       0.876660
     1546.500000       0.875470
     1546.600000       0.874230
     1546.700000       0.872940
     1546.800000       0.871610
     1546.900000       0.870220
     1547.000000       0.868780
     1547.100000       0.866880
     1547.200000       0.864880
     1547.300000       0.862840
     1547.400000       0.860750
     1547.500000       0.858630
     1547.600000       0.856480
     1547.700000       0.854300
     1547.800000       0.852110
     1547.900000       0.849900
     1548.000000       0.847690
     1548.100000       0.845510
     1548.200000       0.843340
     1548.300000       0.841170
     1548.400000       0.839010
     1548.500000       0.836860
     1548.600000       0.834720
     1548.700000       0.832580
     1548.800000       0.830460
     1548.900000       0.828340
     1549.000000       0.825780
     1549.100000       0.822930
     1549.200000       0.820090
     1549.300000       0.817260
     1549.400000       0.814440
     1549.500000       0.811640
     1549.600000       0.808860
     1549.700000       0.806100
     1549.800000       0.803380
     1549.900000       0.800690
     1550.000000       0.798060
     1550.100000       0.795430
     1550.200000       0.792860
     1550.300000       0.790380
     1550.400000       0.787980
     1550.500000       0.785690
     1550.600000       0.783500
     1550.700000       0.781430
     1550.800000       0.779490
     1550.900000       0.777460
     1551.000000       0.775080
     1551.100000       0.772820
     1551.200000       0.770710
     1551.300000       0.768730
     1551.400000       0.766880
     1551.500000       0.765170
     1551.600000       0.763570
     1551.700000       0.762090
     1551.800000       0.760710
     1551.900000       0.759420
     1552.000000       0.758230
     1552.100000       0.756970
     1552.200000       0.755790
     1552.300000       0.754690
     1552.400000       0.753650
     1552.500000       0.752690
     1552.600000       0.751790
     1552.700000       0.750970
     1552.800000       0.750190
     1552.900000       0.749170
     1553.000000       0.748240
     1553.100000       0.747420
     1553.200000       0.746710
     1553.300000       0.746120
     1553.400000       0.745670
     1553.500000       0.745370
     1553.600000       0.745210
     1553.700000       0.745200
     1553.800000       0.745350
     1553.900000       0.745650
     1554.000000       0.746100
     1554.100000       0.746920
     1554.200000       0.747880
     1554.300000       0.748930
     1554.400000       0.750080
     1554.500000       0.751290
     1554.600000       0.752540
     1554.700000       0.753790
     1554.800000       0.755170
     1554.900000       0.756540
     1555.000000       0.757800
     1555.100000       0.758940
     1555.200000       0.759910
     1555.300000       0.760670
     1555.400000       0.761200
     1555.500000       0.761450
     1555.600000       0.761410
     1555.700000       0.761040
     1555.800000       0.760320
     1555.900000       0.759240
     1556.000000       0.757780
     1556.100000       0.756020
     1556.200000       0.753860
     1556.300000       0.751290
     1556.400000       0.748320
     1556.500000       0.744940
     1556.600000       0.741140
     1556.700000       0.737290
     1556.800000       0.733390
     1556.900000       0.729080
     1557.000000       0.724380
     1557.100000       0.719300
     1557.200000       0.713830
     1557.300000       0.707990
     1557.400000       0.701770
     1557.500000       0.695190
     1557.600000       0.688240
     1557.700000       0.680930
     1557.800000       0.673270
     1557.900000       0.665250
     1558.000000       0.656880
     1558.100000       0.648240
     1558.200000       0.639270
     1558.300000       0.629950
     1558.400000       0.620310
     1558.500000       0.610360
     1558.600000       0.600220
     1558.700000       0.590280
     1558.800000       0.580050
     1558.900000       0.569550
     1559.000000       0.558780
     1559.100000       0.547780
     1559.200000       0.536570
     1559.300000       0.525180
     1559.400000       0.513640
     1559.500000       0.501970
     1559.600000       0.490200
     1559.700000       0.478370
     1559.800000       0.466490
     1559.900000       0.454600
     1560.000000       0.442720
     1560.100000       0.430820
     1560.200000       0.418970
     1560.300000       0.407210
     1560.400000       0.395540
     1560.500000       0.383990
     1560.600000       0.372760
     1560.700000       0.361670
     1560.800000       0.350710
     1560.900000       0.339880
     1561.000000       0.329180
     1561.100000       0.318620
     1561.200000       0.308190
     1561.300000       0.297910
     1561.400000       0.287760
     1561.500000       0.277760
     1561.600000       0.267900
     1561.700000       0.258180
     1561.800000       0.248620
     1561.900000       0.239210
     1562.000000       0.229970
     1562.100000       0.220910
     1562.200000       0.212030
     1562.300000       0.203350
     1562.400000       0.194860
     1562.500000       0.186610
     1562.600000       0.178610
     1562.700000       0.170840
     1562.800000       0.163310
     1562.900000       0.156040
     1563.000000       0.149030
     1563.100000       0.142300
     1563.200000       0.135840
     1563.300000       0.129670
     1563.400000       0.123780
     1563.500000       0.118180
     1563.600000       0.112860
     1563.700000       0.107810
     1563.800000       0.103040
     1563.900000       0.098523
     1564.000000       0.094258
     1564.100000       0.090232
     1564.200000       0.086428
     1564.300000       0.082831
     1564.400000       0.079421
     1564.500000       0.076178
     1564.600000       0.073097
     1564.700000       0.070164
     1564.800000       0.067366
     1564.900000       0.064688
     1565.000000       0.062121
     1565.100000       0.059652
     1565.200000       0.057274
     1565.300000       0.054979
     1565.400000       0.052762
     1565.500000       0.050619
     1565.600000       0.048546
     1565.700000       0.046541
     1565.800000       0.044604
     1565.900000       0.042733
     1566.000000       0.040930
     1566.100000       0.039198
     1566.200000       0.037533
     1566.300000       0.035939
     1566.400000       0.035717
     1566.500000       0.034235
     1566.600000       0.032821
     1566.700000       0.031474
     1566.800000       0.030192
     1566.900000       0.028975
     1567.000000       0.027820
     1567.100000       0.026727
     1567.200000       0.025694
     1567.300000       0.024718
     1567.400000       0.023798
     1567.500000       0.022931
     1567.600000       0.022116
     1567.700000       0.021349
     1567.800000       0.020628
     1567.900000       0.019950
     1568.000000       0.019312
     1568.100000       0.018710
     1568.200000       0.018142
     1568.300000       0.017596
     1568.400000       0.017075
     1568.500000       0.016579
     1568.600000       0.016105
     1568.700000       0.015651
     1568.800000       0.015213
     1568.900000       0.014788
     1569.000000       0.014375
     1569.100000       0.013970
     1569.200000       0.013571
     1569.300000       0.013177
     1569.400000       0.012786
     1569.500000       0.012397
     1569.600000       0.012009
     1569.700000       0.011622
     1569.800000       0.011234
     1569.900000       0.010847
     1570.000000       0.010462
     1570.100000       0.010078
     1570.200000       0.009698
     1570.300000       0.009321
     1570.400000       0.008951
     1570.500000       0.008589
     1570.600000       0.008238
     1570.700000       0.007900
     1570.800000       0.007576
     1570.900000       0.007270
     1571.000000       0.006981
     1571.100000       0.006712
     1571.200000       0.006465
     1571.300000       0.006238
     1571.400000       0.006033
     1571.500000       0.005850
     1571.600000       0.005687
     1571.700000       0.005543
     1571.800000       0.005418
     1571.900000       0.005308
     1572.000000       0.005212
     1572.100000       0.005126
     1572.200000       0.005050
     1572.300000       0.004979
     1572.400000       0.004909
     1572.500000       0.004840
     1572.600000       0.004767
     1572.700000       0.004688
     1572.800000       0.004602
     1572.900000       0.004507
     1573.000000       0.004402
     1573.100000       0.004286
     1573.200000       0.004160
     1573.300000       0.004023
     1573.400000       0.003878
     1573.500000       0.003726
     1573.600000       0.003569
     1573.700000       0.003409
     1573.800000       0.003249
     1573.900000       0.003093
     1574.000000       0.002941
     1574.100000       0.002798
     1574.200000       0.002665
     1574.300000       0.002544
     1574.400000       0.002437
     1574.500000       0.002345
     1574.600000       0.002267
     1574.700000       0.002205
     1574.800000       0.002158
     1574.900000       0.002124
     1575.000000       0.002102
     1575.100000       0.002090
     1575.200000       0.002084
     1575.300000       0.002083
     1575.400000       0.002083
     1575.500000       0.002081
     1575.600000       0.002074
     1575.700000       0.002059
     1575.800000       0.002034
     1575.900000       0.001996
     1576.000000       0.001944
     1576.100000       0.001877
     1576.200000       0.001796
     1576.300000       0.001711
     1576.400000       0.001629
     1576.500000       0.001548
     1576.600000       0.001466
     1576.700000       0.001381
     1576.800000       0.001291
     1576.900000       0.001196
     1577.000000       0.001094
     1577.100000       0.000985
     1577.200000       0.000099
     1577.300000       0.000129
     1577.400000       0.000303
     1577.500000       0.000437
     1577.600000       0.000524
     1577.700000       0.000561
     1577.800000       0.000546
     1577.900000       0.000480
     1578.000000       0.000368
     1578.100000       0.000229
     1578.200000       0.000000
